leftP,rightP,trial_response_side,trial_reward,cue_time,response_time
0.85,0.05,,,14.21465,
0.85,0.05,1.0,0.0,25.6516,
0.85,0.05,-1.0,0.0,29.00545,
0.85,0.05,-1.0,1.0,32.43125,
0.85,0.05,,,39.695,
0.85,0.05,1.0,0.0,47.79665,
0.85,0.05,1.0,0.0,53.04,
0.85,0.05,-1.0,1.0,57.9502,
0.85,0.05,-1.0,1.0,61.08895,
0.85,0.05,-1.0,1.0,68.7519,
0.85,0.05,-1.0,1.0,73.9203,
0.85,0.05,-1.0,1.0,82.6994,
0.85,0.05,,,85.94175,
0.85,0.05,1.0,0.0,95.14675,
0.85,0.05,-1.0,0.0,98.7092,
0.85,0.05,,,106.7874,
0.85,0.05,,,114.88835,
0.85,0.05,,,122.9913,
0.85,0.05,,,131.09605,
0.85,0.05,,,139.19805,
0.85,0.05,1.0,0.0,147.30165,
0.85,0.05,-1.0,1.0,150.95175,
0.85,0.05,,,158.6679,
0.85,0.05,,,166.7719,
0.85,0.05,,,174.87305,
0.85,0.05,,,182.97365,
0.85,0.05,,,191.07665,
0.85,0.05,1.0,0.0,200.8772,
0.85,0.05,-1.0,1.0,204.16425,
0.85,0.05,-1.0,0.0,210.74425,
0.85,0.05,1.0,0.0,223.75305,
0.85,0.05,-1.0,1.0,231.7783,
0.85,0.05,-1.0,1.0,239.9189,
0.85,0.05,1.0,0.0,247.6579,
0.85,0.05,1.0,0.0,250.61585,
0.85,0.05,1.0,0.0,254.33775,
0.85,0.05,1.0,1.0,257.0935,
0.85,0.05,-1.0,1.0,261.62195,
0.85,0.05,1.0,0.0,265.6823,
0.85,0.05,-1.0,1.0,270.36665,
0.85,0.05,-1.0,1.0,275.4944,
0.85,0.05,-1.0,1.0,279.40675,
0.85,0.05,-1.0,1.0,283.41755,
0.85,0.05,1.0,0.0,291.63415,
0.85,0.05,-1.0,1.0,296.86025,
0.85,0.05,-1.0,1.0,299.86355,
0.85,0.05,-1.0,0.0,304.0008,
0.85,0.05,1.0,0.0,306.8244,
0.85,0.05,-1.0,1.0,309.9798,
0.85,0.05,1.0,0.0,312.63165,
0.85,0.05,-1.0,0.0,315.56145,
0.85,0.05,1.0,0.0,319.3605,
0.85,0.05,-1.0,1.0,323.50405,
0.85,0.05,1.0,0.0,326.94525,
0.85,0.05,-1.0,1.0,329.7165,
0.85,0.05,1.0,0.0,332.36725,
0.85,0.05,-1.0,1.0,336.01795,
0.85,0.05,1.0,0.0,338.72155,
0.85,0.05,-1.0,1.0,343.6373,
0.85,0.05,1.0,0.0,348.04745,
0.85,0.05,-1.0,1.0,352.7128,
0.85,0.05,1.0,0.0,355.1995,
0.85,0.05,-1.0,0.0,358.4428,
0.85,0.05,1.0,1.0,362.1187,
0.85,0.05,1.0,0.0,370.0867,
0.85,0.05,1.0,0.0,374.1906,
0.85,0.05,1.0,0.0,378.71135,
0.85,0.05,-1.0,1.0,381.5453,
0.85,0.05,1.0,0.0,384.35765,
0.85,0.05,1.0,0.0,386.61945,
0.85,0.05,-1.0,1.0,395.25715,
0.85,0.05,1.0,0.0,398.6042,
0.85,0.05,-1.0,1.0,402.6802,
0.85,0.05,-1.0,1.0,405.42725,
0.85,0.05,1.0,0.0,412.1173,
0.85,0.05,1.0,0.0,415.45105,
0.85,0.05,-1.0,1.0,418.28535,
0.85,0.05,1.0,0.0,423.00755,
0.85,0.05,1.0,0.0,426.77635,
0.85,0.05,1.0,0.0,429.92985,
0.85,0.05,-1.0,1.0,436.2138,
0.85,0.05,-1.0,1.0,441.51415,
0.85,0.05,1.0,0.0,445.92455,
0.85,0.05,-1.0,1.0,448.4927,
0.85,0.05,1.0,0.0,452.53995,
0.85,0.05,-1.0,1.0,455.36195,
0.85,0.05,-1.0,1.0,460.33365,
0.85,0.05,-1.0,1.0,464.44585,
0.85,0.05,-1.0,1.0,468.35155,
0.85,0.05,1.0,0.0,472.1959,
0.85,0.05,1.0,0.0,477.25875,
0.85,0.05,1.0,0.0,480.5528,
0.85,0.05,-1.0,0.0,486.5116,
0.85,0.05,,,493.6034,
0.85,0.05,-1.0,1.0,502.569,
0.85,0.05,-1.0,1.0,507.1218,
0.85,0.05,-1.0,1.0,517.4199,
0.85,0.05,,,520.9447,
0.85,0.05,-1.0,1.0,529.04685,
0.85,0.05,-1.0,1.0,539.03875,
0.85,0.05,-1.0,1.0,544.74835,
0.85,0.05,-1.0,1.0,552.87935,
0.85,0.05,-1.0,1.0,556.7958,
0.85,0.05,1.0,0.0,559.9395,
0.85,0.05,-1.0,1.0,562.42185,
0.05,0.9,-1.0,0.0,565.47025,
0.05,0.9,,,567.752,
0.05,0.9,-1.0,0.0,575.85705,
0.05,0.9,-1.0,1.0,583.1494,
0.05,0.9,1.0,1.0,586.35775,
0.05,0.9,-1.0,0.0,590.48865,
0.05,0.9,1.0,1.0,594.68285,
0.05,0.9,-1.0,0.0,600.81875,
0.05,0.9,-1.0,0.0,604.0181,
0.05,0.9,-1.0,0.0,607.2215,
0.05,0.9,1.0,1.0,616.8814,
0.05,0.9,1.0,1.0,619.55705,
0.05,0.9,-1.0,0.0,628.60955,
0.05,0.9,-1.0,0.0,632.02305,
0.05,0.9,1.0,1.0,637.55825,
0.05,0.9,1.0,0.0,643.95295,
0.05,0.9,-1.0,0.0,648.6003,
0.05,0.9,-1.0,0.0,652.74275,
0.05,0.9,1.0,1.0,655.6799,
0.05,0.9,-1.0,0.0,664.148,
0.05,0.9,-1.0,0.0,670.6942,
0.05,0.9,-1.0,0.0,675.5312,
0.05,0.9,-1.0,0.0,681.7083,
0.05,0.9,-1.0,0.0,684.53565,
0.05,0.9,-1.0,0.0,688.65845,
0.05,0.9,,,691.754,
0.05,0.9,1.0,1.0,699.8555,
0.05,0.9,1.0,1.0,702.31085,
0.05,0.9,1.0,1.0,708.7556,
0.05,0.9,-1.0,0.0,712.2316,
0.05,0.9,1.0,1.0,716.2936,
0.05,0.9,1.0,1.0,719.4955,
0.05,0.9,1.0,1.0,723.41685,
0.05,0.9,1.0,0.0,727.15235,
0.05,0.9,-1.0,0.0,729.91445,
0.05,0.9,1.0,1.0,734.5799,
0.05,0.9,1.0,1.0,738.9782,
0.05,0.9,1.0,1.0,741.97455,
0.05,0.9,1.0,1.0,747.1391,
0.05,0.9,1.0,1.0,752.03335,
0.05,0.9,1.0,1.0,757.0457,
0.05,0.9,1.0,1.0,759.4706,
0.05,0.9,1.0,0.0,762.44065,
0.05,0.9,1.0,1.0,766.5166,
0.05,0.9,1.0,1.0,768.7916,
0.05,0.9,1.0,1.0,772.23925,
0.05,0.9,1.0,1.0,777.8498,
0.05,0.9,1.0,1.0,782.0047,
0.05,0.9,1.0,1.0,787.808,
0.05,0.9,1.0,1.0,790.66895,
0.05,0.9,1.0,1.0,793.972,
0.05,0.9,1.0,1.0,797.0566,
0.05,0.9,1.0,1.0,800.1072,
0.05,0.9,1.0,1.0,804.50565,
0.05,0.9,-1.0,0.0,808.3947,
0.05,0.9,1.0,1.0,811.76625,
0.05,0.9,1.0,1.0,817.9236,
0.05,0.9,1.0,1.0,822.1472,
0.05,0.9,1.0,1.0,826.53225,
0.05,0.9,-1.0,0.0,830.55565,
0.05,0.9,1.0,1.0,834.07405,
0.05,0.9,1.0,1.0,836.9204,
0.8,0.05,1.0,1.0,839.3029,
0.8,0.05,1.0,0.0,842.144,
0.8,0.05,1.0,0.0,844.4564,
0.8,0.05,1.0,0.0,848.2222,
0.8,0.05,1.0,0.0,851.06545,
0.8,0.05,-1.0,1.0,855.29095,
0.8,0.05,1.0,0.0,858.6992,
0.8,0.05,-1.0,1.0,862.3367,
0.8,0.05,1.0,0.0,865.16955,
0.8,0.05,1.0,0.0,869.1647,
0.8,0.05,1.0,0.0,872.28975,
0.8,0.05,,,875.15095,
0.8,0.05,1.0,0.0,884.09975,
0.8,0.05,1.0,0.0,895.9092,
0.8,0.05,1.0,0.0,900.61535,
0.8,0.05,1.0,0.0,907.89925,
0.8,0.05,,,910.81635,
0.8,0.05,1.0,0.0,920.8641,
0.8,0.05,-1.0,1.0,924.8328,
0.8,0.05,-1.0,1.0,929.54425,
0.8,0.05,1.0,0.0,935.06385,
0.8,0.05,,,937.5767,
0.8,0.05,1.0,0.0,945.67875,
0.8,0.05,,,954.37025,
0.8,0.05,1.0,0.0,963.47955,
0.8,0.05,,,966.52735,
0.8,0.05,-1.0,1.0,974.67175,
0.8,0.05,1.0,0.0,980.36235,
0.8,0.05,,,986.99035,
0.8,0.05,1.0,0.0,995.0914,
0.8,0.05,1.0,0.0,1002.9501,
0.8,0.05,,,1005.1974,
0.8,0.05,1.0,0.0,1013.2995,
0.8,0.05,1.0,1.0,1016.48185,
0.8,0.05,1.0,0.0,1024.4722,
0.8,0.05,1.0,0.0,1028.09295,
0.8,0.05,,,1032.68705,
0.8,0.05,1.0,0.0,1040.7871,
0.8,0.05,1.0,0.0,1044.7758,
0.8,0.05,,,1053.0853,
0.8,0.05,,,1061.1953,
0.8,0.05,,,1069.2963,
0.8,0.05,1.0,0.0,1077.40405,
0.8,0.05,,,1085.79875,
0.8,0.05,,,1093.90175,
0.8,0.05,,,1102.0048,
0.8,0.05,-1.0,1.0,1110.10585,
0.8,0.05,,,1120.0545,
0.8,0.05,-1.0,1.0,1128.1585,
0.8,0.05,,,1132.7772,
0.8,0.05,,,1140.87825,
0.8,0.05,1.0,0.0,1148.98125,
0.8,0.05,,,1159.2132,
0.8,0.05,,,1167.31625,
0.8,0.05,,,1175.41835,
0.8,0.05,1.0,0.0,1183.51995,
0.8,0.05,,,1187.8871,
0.8,0.05,,,1195.98985,
0.8,0.05,,,1204.09285,
0.8,0.05,,,1212.19455,
0.8,0.05,,,1220.2966,
0.8,0.05,1.0,0.0,1228.3981,
0.8,0.05,,,1231.96125,
0.8,0.05,1.0,0.0,1240.82585,
0.8,0.05,,,1244.15145,
0.8,0.05,1.0,0.0,1252.25485,
0.8,0.05,,,1258.15995,
0.8,0.05,,,1266.2648,
0.8,0.05,1.0,0.0,1274.3684,
0.8,0.05,1.0,0.0,1282.0715,
0.8,0.05,,,1289.8207,
0.8,0.05,1.0,0.0,1297.9267,
0.8,0.05,,,1301.30715,
0.8,0.05,,,1309.4088,
0.8,0.05,1.0,0.0,1317.96165,
0.8,0.05,1.0,0.0,1324.8788,
0.8,0.05,,,1333.3594,
0.8,0.05,,,1341.46145,
0.8,0.05,,,1349.5797,
0.8,0.05,1.0,0.0,1357.6814,
0.8,0.05,,,1362.0066,
0.8,0.05,,,1370.10745,
0.8,0.05,,,1378.21405,
0.8,0.05,,,1386.32005,
0.8,0.05,1.0,0.0,1394.4241,
0.8,0.05,,,1398.4929,
0.8,0.05,1.0,0.0,1406.5949,
0.8,0.05,-1.0,0.0,1411.82735,
0.8,0.05,1.0,0.0,1414.25235,
0.8,0.05,-1.0,1.0,1418.8239,
0.8,0.05,,,1424.85955,
0.8,0.05,-1.0,1.0,1434.5393,
0.8,0.05,1.0,0.0,1443.7164,
0.8,0.05,,,1452.99815,
0.8,0.05,,,1461.09815,
0.8,0.05,,,1469.19925,
0.8,0.05,,,1477.3032,
0.8,0.05,,,1485.40615,
0.8,0.05,-1.0,1.0,1493.50825,
0.8,0.05,1.0,0.0,1503.46795,
0.8,0.05,,,1510.6242,
0.8,0.05,,,1518.7248,
0.8,0.05,,,1526.8607,
0.8,0.05,1.0,0.0,1534.96475,
0.8,0.05,1.0,0.0,1544.5996,
0.8,0.05,1.0,0.0,1550.47465,
0.8,0.05,1.0,0.0,1559.62085,
0.8,0.05,-1.0,1.0,1564.39145,
0.8,0.05,1.0,0.0,1568.12435,
0.8,0.05,,,1573.148,
0.8,0.05,,,1581.24985,
0.8,0.05,1.0,0.0,1589.35685,
0.8,0.05,,,1595.41075,
0.8,0.05,1.0,0.0,1603.5141,
0.8,0.05,-1.0,1.0,1608.1301,
0.8,0.05,-1.0,0.0,1620.43995,
0.8,0.05,,,1625.38555,
0.8,0.05,,,1633.4861,
0.8,0.05,,,1642.6223,
0.8,0.05,,,1650.72535,
0.8,0.05,,,1659.51725,
0.8,0.05,,,1667.62025,
0.8,0.05,,,1675.7223,
0.8,0.05,,,1683.82535,
0.8,0.05,,,1691.92655,
0.8,0.05,,,1700.02855,
0.8,0.05,,,1708.15225,
0.8,0.05,-1.0,1.0,1716.25425,
0.8,0.05,,,1721.9955,
0.8,0.05,,,1730.0995,
0.8,0.05,-1.0,0.0,1738.2015,
0.8,0.05,-1.0,1.0,1742.9358,
0.8,0.05,-1.0,1.0,1747.02155,
0.8,0.05,1.0,0.0,1753.04,
0.8,0.05,,,1760.773,
0.8,0.05,1.0,0.0,1768.8747,
0.8,0.05,1.0,0.0,1773.4134,
0.8,0.05,,,1776.8381,
0.8,0.05,,,1784.9428,
0.8,0.05,,,1793.0458,
0.8,0.05,,,1801.1542,
0.8,0.05,-1.0,1.0,1809.2565,
0.8,0.05,-1.0,0.0,1817.7175,
0.8,0.05,-1.0,1.0,1824.5071,
0.8,0.05,-1.0,0.0,1830.35005,
0.8,0.05,-1.0,0.0,1836.54425,
0.8,0.05,,,1843.6132,
0.8,0.05,1.0,1.0,1851.7142,
0.8,0.05,1.0,0.0,1857.33715,
0.8,0.05,,,1859.9754,
0.8,0.05,1.0,0.0,1868.0776,
0.8,0.05,,,1872.7229,
0.8,0.05,,,1880.8251,
0.8,0.05,-1.0,1.0,1897.20825,
0.8,0.05,1.0,0.0,1904.71855,
0.8,0.05,,,1908.98305,
0.8,0.05,,,1917.6919,
0.8,0.05,,,1927.0386,
0.8,0.05,,,1935.1411,
0.8,0.05,1.0,0.0,1943.2458,
0.8,0.05,,,1948.49655,
0.8,0.05,-1.0,1.0,1956.6022,
0.8,0.05,1.0,0.0,1962.39405,
0.8,0.05,,,1966.22115,
0.8,0.05,,,1974.32365,
0.8,0.05,1.0,0.0,1982.43285,
0.8,0.05,,,1988.57415,
0.8,0.05,,,1996.68135,
0.8,0.05,,,2004.7855,
0.8,0.05,,,2012.8966,
0.8,0.05,,,2020.9979,
0.8,0.05,,,2029.0982,
0.8,0.05,,,2037.20205,
0.8,0.05,,,2045.30375,
0.8,0.05,-1.0,1.0,2053.44215,
0.8,0.05,-1.0,1.0,2060.69195,
0.8,0.05,,,2063.1814,
0.8,0.05,,,2071.28345,
0.8,0.05,,,2079.38465,
0.8,0.05,1.0,0.0,2087.4873,
0.8,0.05,1.0,0.0,2095.4955,
0.8,0.05,,,2105.87135,
